{
    "resourceType": "Bundle",
    "type": "transaction",
    "entry": [
      {
        "fullUrl": "urn:uuid:c4f1aa84-76d9-4585-b309-9260f32ec949",
        "resource": {
          "resourceType": "Patient",
          "identifier": [
            {
              "system": "https://fhir.example.org/NISTMPI",
              "value": "PATID1234"
            }
          ],
          "name": [
            {
              "family": "Jones",
              "given": [
                "William"
              ]
            }
          ],
          "birthDate": "1961-06-27"
        },
        "request": {
          "method": "POST",
          "url": "Patient"
        }
      },
      {
        "fullUrl": "urn:uuid:67fd52e4-7a19-4da4-bea1-06ae3ee7c212",
        "resource": {
          "resourceType": "ServiceRequest",
          "identifier": [
            {
              "value": "ORD777888"
            },
            {
              "value": "R-220713"
            }
          ],
          "status": "active",
          "intent": "order",
          "code": {
            "coding": [
              {
                "code": "24331-1",
                "display": "Lipid 1996 panel in Serum or Plasma"
              }
            ]
          },
          "subject": {
            "reference": "urn:uuid:c4f1aa84-76d9-4585-b309-9260f32ec949"
          },
          "requester": {
            "identifier": {
              "value": "5742200012"
            },
            "display": "Nicholas Radon"
          }
        },
        "request": {
          "method": "POST",
          "url": "ServiceRequest"
        }
      },
      {
        "fullUrl": "urn:uuid:d42aafbf-4a41-49e2-9310-1893b8cf29ec",
        "resource": {
          "resourceType": "Specimen",
          "identifier": [
            {
              "value": "S2015-777888"
            }
          ],
          "accessionIdentifier": {
            "value": "S-220713-1"
          },
          "type": {
            "coding": [
              {
                "code": "119297000",
                "display": "BLD"
              }
            ]
          },
          "subject": {
            "reference": "urn:uuid:c4f1aa84-76d9-4585-b309-9260f32ec949"
          },
          "collection": {
            "collectedDateTime": "2015-09-25T00:00:00+00:00"
          }
        },
        "request": {
          "method": "POST",
          "url": "Specimen"
        }
      },
      {
        "fullUrl": "urn:uuid:64a3917c-fadf-4681-9d2e-447ada7b1d1f",
        "resource": {
          "resourceType": "DiagnosticReport",
          "extension": [
            {
              "url": "http://fhir.example.org/backport/DiagnosticReport-note",
              "valueString": "Patient was fasting prior to the procedure."
            }
          ],
          "identifier": [
            {
              "value": "ORD777888-1"
            }
          ],
          "basedOn": [
            {
              "reference": "urn:uuid:67fd52e4-7a19-4da4-bea1-06ae3ee7c212",
              "type": "ServiceRequest",
              "identifier": {
                "value": "ORD777888"
              }
            },
            {
              "type": "ServiceRequest",
              "identifier": {
                "value": "R-220713"
              }
            }
          ],
          "status": "final",
          "code": {
            "coding": [
              {
                "code": "24331-1",
                "display": "Lipid 1996 panel in Serum or Plasma"
              }
            ]
          },
          "subject": {
            "reference": "urn:uuid:c4f1aa84-76d9-4585-b309-9260f32ec949"
          },
          "effectiveDateTime": "2015-09-25T00:00:00+00:00",
          "specimen": [
            {
              "reference": "urn:uuid:d42aafbf-4a41-49e2-9310-1893b8cf29ec"
            }
          ],
          "result": [
            {
              "reference": "urn:uuid:714ed14e-dcd7-435e-b55a-b24d56202e64"
            },
            {
              "reference": "urn:uuid:47c3cad2-7fcc-428b-87e2-16fcfdc78720"
            },
            {
              "reference": "urn:uuid:619f8a20-9795-445e-96e3-b0b46e572939"
            },
            {
              "reference": "urn:uuid:98c6110b-e7a4-4629-aa09-6b5da939f4b1"
            }
          ]
        },
        "request": {
          "method": "POST",
          "url": "DiagnosticReport"
        }
      },
      {
        "fullUrl": "urn:uuid:714ed14e-dcd7-435e-b55a-b24d56202e64",
        "resource": {
          "resourceType": "Observation",
          "identifier": [
            {
              "value": "ORD777888-1-1"
            }
          ],
          "status": "final",
          "code": {
            "coding": [
              {
                "system": "http://loinc.org",
                "code": "2093-3",
                "display": "Cholesterol [Mass/volume] in Serum or Plasma"
              }
            ]
          },
          "subject": {
            "reference": "urn:uuid:c4f1aa84-76d9-4585-b309-9260f32ec949"
          },
          "effectiveDateTime": "2015-09-25T00:00:00+00:00",
          "performer": [
            {
              "display": "Century Hospital"
            },
            {
              "identifier": {
                "value": "5432178916"
              },
              "display": "Dr. Phil Knowsalot"
            }
          ],
          "valueQuantity": {
            "value": 196,
            "unit": "milligrams per deciliter",
            "system": "http://unitsofmeasure.org",
            "code": "mg/dL"
          },
          "interpretation": [
            {
              "coding": [
                {
                  "system": "http://terminology.hl7.org/CodeSystem/v3-ObservationInterpretation",
                  "code": "N",
                  "display": "Normal"
                }
              ]
            }
          ],
          "referenceRange": [
            {
              "text": "Recommended: <200; Moderate Risk: 200-239 ; High Risk: >240"
            }
          ]
        },
        "request": {
          "method": "POST",
          "url": "Observation"
        }
      },
      {
        "fullUrl": "urn:uuid:47c3cad2-7fcc-428b-87e2-16fcfdc78720",
        "resource": {
          "resourceType": "Observation",
          "identifier": [
            {
              "value": "ORD777888-1-2"
            }
          ],
          "status": "final",
          "code": {
            "coding": [
              {
                "system": "http://loinc.org",
                "code": "2571-8",
                "display": "Triglyceride [Mass/volume] in Serum or Plasma"
              }
            ]
          },
          "subject": {
            "reference": "urn:uuid:c4f1aa84-76d9-4585-b309-9260f32ec949"
          },
          "effectiveDateTime": "2015-09-25T00:00:00+00:00",
          "performer": [
            {
              "display": "Century Hospital"
            },
            {
              "identifier": {
                "value": "5432178916"
              },
              "display": "Dr. Phil Knowsalot"
            }
          ],
          "valueQuantity": {
            "value": 100,
            "unit": "milligrams per deciliter",
            "system": "http://unitsofmeasure.org",
            "code": "mg/dL"
          },
          "interpretation": [
            {
              "coding": [
                {
                  "system": "http://terminology.hl7.org/CodeSystem/v3-ObservationInterpretation",
                  "code": "N",
                  "display": "Normal"
                }
              ]
            }
          ],
          "referenceRange": [
            {
              "text": "40 to 160"
            }
          ]
        },
        "request": {
          "method": "POST",
          "url": "Observation"
        }
      },
      {
        "fullUrl": "urn:uuid:619f8a20-9795-445e-96e3-b0b46e572939",
        "resource": {
          "resourceType": "Observation",
          "identifier": [
            {
              "value": "ORD777888-1-3"
            }
          ],
          "status": "final",
          "code": {
            "coding": [
              {
                "system": "http://loinc.org",
                "code": "2085-9",
                "display": "Cholesterol in HDL [Mass/volume] in Serum or Plasma"
              }
            ]
          },
          "subject": {
            "reference": "urn:uuid:c4f1aa84-76d9-4585-b309-9260f32ec949"
          },
          "effectiveDateTime": "2015-09-25T00:00:00+00:00",
          "performer": [
            {
              "display": "Century Hospital"
            },
            {
              "identifier": {
                "value": "5432178916"
              },
              "display": "Dr. Phil Knowsalot"
            }
          ],
          "valueQuantity": {
            "value": 60,
            "unit": "milligrams per deciliter",
            "system": "http://unitsofmeasure.org",
            "code": "mg/dL"
          },
          "interpretation": [
            {
              "coding": [
                {
                  "system": "http://terminology.hl7.org/CodeSystem/v3-ObservationInterpretation",
                  "code": "N",
                  "display": "Normal"
                }
              ]
            }
          ],
          "referenceRange": [
            {
              "text": "29 to 72"
            }
          ]
        },
        "request": {
          "method": "POST",
          "url": "Observation"
        }
      },
      {
        "fullUrl": "urn:uuid:98c6110b-e7a4-4629-aa09-6b5da939f4b1",
        "resource": {
          "resourceType": "Observation",
          "identifier": [
            {
              "value": "ORD777888-1-4"
            }
          ],
          "status": "final",
          "code": {
            "coding": [
              {
                "system": "http://loinc.org",
                "code": "2089-1",
                "display": "Cholesterol in LDL [Mass/volume] in Serum or Plasma"
              }
            ]
          },
          "subject": {
            "reference": "urn:uuid:c4f1aa84-76d9-4585-b309-9260f32ec949"
          },
          "effectiveDateTime": "2015-09-25T00:00:00+00:00",
          "performer": [
            {
              "display": "Century Hospital"
            },
            {
              "identifier": {
                "value": "5432178916"
              },
              "display": "Dr. Phil Knowsalot"
            }
          ],
          "valueQuantity": {
            "value": 116,
            "unit": "milligrams per deciliter",
            "system": "http://unitsofmeasure.org",
            "code": "mg/dL"
          },
          "interpretation": [
            {
              "coding": [
                {
                  "system": "http://terminology.hl7.org/CodeSystem/v3-ObservationInterpretation",
                  "code": "N",
                  "display": "Normal"
                }
              ]
            }
          ],
          "referenceRange": [
            {
              "text": "Recommended: <130; Moderate Risk: 130-159; High Risk: >160"
            }
          ]
        },
        "request": {
          "method": "POST",
          "url": "Observation"
        }
      }
    ]
  }