{
    "resourceType": "Bundle",
    "type": "transaction",
    "entry": [
      {
        "fullUrl": "urn:uuid:11e5c885-bab4-4b82-be69-e8b0b95777dc",
        "resource": {
          "resourceType": "Patient",
          "identifier": [
            {
              "system": "https://fhir.example.org/NISTMPI",
              "value": "PATID1234"
            }
          ],
          "name": [
            {
              "family": "Jones",
              "given": [
                "William"
              ]
            }
          ],
          "birthDate": "1961-06-27"
        },
        "request": {
          "method": "POST",
          "url": "Patient"
        }
      },
      {
        "fullUrl": "urn:uuid:a84b1866-a603-4bcc-b54a-966d258687ce",
        "resource": {
          "resourceType": "ServiceRequest",
          "identifier": [
            {
              "value": "ORD777888"
            },
            {
              "value": "R-220713"
            }
          ],
          "status": "active",
          "intent": "order",
          "code": {
            "coding": [
              {
                "code": "24331-1",
                "display": "Lipid 1996 panel in Serum or Plasma"
              }
            ]
          },
          "subject": {
            "reference": "urn:uuid:11e5c885-bab4-4b82-be69-e8b0b95777dc"
          },
          "requester": {
            "identifier": {
              "value": "5742200012"
            },
            "display": "Nicholas Radon"
          }
        },
        "request": {
          "method": "POST",
          "url": "ServiceRequest"
        }
      },
      {
        "fullUrl": "urn:uuid:70eae5b9-2bed-4253-ac3d-b4c4ba2e542f",
        "resource": {
          "resourceType": "Specimen",
          "identifier": [
            {
              "value": "S2015-777888"
            }
          ],
          "accessionIdentifier": {
            "value": "S-220713-1"
          },
          "type": {
            "coding": [
              {
                "code": "119297000",
                "display": "BLD"
              }
            ]
          },
          "subject": {
            "reference": "urn:uuid:11e5c885-bab4-4b82-be69-e8b0b95777dc"
          },
          "collection": {
            "collectedDateTime": "2015-09-25T00:00:00+00:00"
          }
        },
        "request": {
          "method": "POST",
          "url": "Specimen"
        }
      },
      {
        "fullUrl": "urn:uuid:6a217529-bfab-4a28-8491-36e908cd52b7",
        "resource": {
          "resourceType": "DiagnosticReport",
          "identifier": [
            {
              "value": "ORD777888-1"
            }
          ],
          "basedOn": [
            {
              "reference": "urn:uuid:a84b1866-a603-4bcc-b54a-966d258687ce",
              "type": "ServiceRequest",
              "identifier": {
                "value": "ORD777888"
              }
            },
            {
              "type": "ServiceRequest",
              "identifier": {
                "value": "R-220713"
              }
            }
          ],
          "status": "final",
          "code": {
            "coding": [
              {
                "code": "24331-1",
                "display": "Lipid 1996 panel in Serum or Plasma"
              }
            ]
          },
          "subject": {
            "reference": "urn:uuid:11e5c885-bab4-4b82-be69-e8b0b95777dc"
          },
          "effectiveDateTime": "2015-09-25T00:00:00+00:00",
          "specimen": [
            {
              "reference": "urn:uuid:70eae5b9-2bed-4253-ac3d-b4c4ba2e542f"
            }
          ],
          "result": [
            {
              "reference": "urn:uuid:3d41a6be-6ce5-4f64-8f1b-b0ee4ba52f3f"
            },
            {
              "reference": "urn:uuid:27ab986a-94f9-434e-a1d6-1c6a37297683"
            },
            {
              "reference": "urn:uuid:e2423517-d535-4683-b192-99d0059ee65f"
            },
            {
              "reference": "urn:uuid:e5df55fa-a48d-434b-8715-f409971d1db9"
            }
          ]
        },
        "request": {
          "method": "POST",
          "url": "DiagnosticReport"
        }
      },
      {
        "fullUrl": "urn:uuid:3d41a6be-6ce5-4f64-8f1b-b0ee4ba52f3f",
        "resource": {
          "resourceType": "Observation",
          "identifier": [
            {
              "value": "ORD777888-1-1"
            }
          ],
          "status": "final",
          "code": {
            "coding": [
              {
                "system": "http://loinc.org",
                "code": "2093-3",
                "display": "Cholesterol [Mass/volume] in Serum or Plasma"
              }
            ]
          },
          "subject": {
            "reference": "urn:uuid:11e5c885-bab4-4b82-be69-e8b0b95777dc"
          },
          "effectiveDateTime": "2015-09-25T00:00:00+00:00",
          "valueQuantity": {
            "value": 196,
            "unit": "milligrams per deciliter",
            "system": "http://unitsofmeasure.org",
            "code": "mg/dL"
          },
          "interpretation": [
            {
              "coding": [
                {
                  "system": "http://terminology.hl7.org/CodeSystem/v3-ObservationInterpretation",
                  "code": "N",
                  "display": "Normal"
                }
              ]
            }
          ],
          "referenceRange": [
            {
              "text": "Recommended: <200; Moderate Risk: 200-239 ; High Risk: >240"
            }
          ]
        },
        "request": {
          "method": "POST",
          "url": "Observation"
        }
      },
      {
        "fullUrl": "urn:uuid:27ab986a-94f9-434e-a1d6-1c6a37297683",
        "resource": {
          "resourceType": "Observation",
          "identifier": [
            {
              "value": "ORD777888-1-2"
            }
          ],
          "status": "final",
          "code": {
            "coding": [
              {
                "system": "http://loinc.org",
                "code": "2571-8",
                "display": "Triglyceride [Mass/volume] in Serum or Plasma"
              }
            ]
          },
          "subject": {
            "reference": "urn:uuid:11e5c885-bab4-4b82-be69-e8b0b95777dc"
          },
          "effectiveDateTime": "2015-09-25T00:00:00+00:00",
          "valueQuantity": {
            "value": 100,
            "unit": "milligrams per deciliter",
            "system": "http://unitsofmeasure.org",
            "code": "mg/dL"
          },
          "interpretation": [
            {
              "coding": [
                {
                  "system": "http://terminology.hl7.org/CodeSystem/v3-ObservationInterpretation",
                  "code": "N",
                  "display": "Normal"
                }
              ]
            }
          ],
          "referenceRange": [
            {
              "text": "40 to 160"
            }
          ]
        },
        "request": {
          "method": "POST",
          "url": "Observation"
        }
      },
      {
        "fullUrl": "urn:uuid:e2423517-d535-4683-b192-99d0059ee65f",
        "resource": {
          "resourceType": "Observation",
          "identifier": [
            {
              "value": "ORD777888-1-3"
            }
          ],
          "status": "final",
          "code": {
            "coding": [
              {
                "system": "http://loinc.org",
                "code": "2085-9",
                "display": "Cholesterol in HDL [Mass/volume] in Serum or Plasma"
              }
            ]
          },
          "subject": {
            "reference": "urn:uuid:11e5c885-bab4-4b82-be69-e8b0b95777dc"
          },
          "effectiveDateTime": "2015-09-25T00:00:00+00:00",
          "valueQuantity": {
            "value": 60,
            "unit": "milligrams per deciliter",
            "system": "http://unitsofmeasure.org",
            "code": "mg/dL"
          },
          "interpretation": [
            {
              "coding": [
                {
                  "system": "http://terminology.hl7.org/CodeSystem/v3-ObservationInterpretation",
                  "code": "N",
                  "display": "Normal"
                }
              ]
            }
          ],
          "referenceRange": [
            {
              "text": "29 to 72"
            }
          ]
        },
        "request": {
          "method": "POST",
          "url": "Observation"
        }
      },
      {
        "fullUrl": "urn:uuid:e5df55fa-a48d-434b-8715-f409971d1db9",
        "resource": {
          "resourceType": "Observation",
          "identifier": [
            {
              "value": "ORD777888-1-4"
            }
          ],
          "status": "final",
          "code": {
            "coding": [
              {
                "system": "http://loinc.org",
                "code": "2089-1",
                "display": "Cholesterol in LDL [Mass/volume] in Serum or Plasma"
              }
            ]
          },
          "subject": {
            "reference": "urn:uuid:11e5c885-bab4-4b82-be69-e8b0b95777dc"
          },
          "effectiveDateTime": "2015-09-25T00:00:00+00:00",
          "valueQuantity": {
            "value": 116,
            "unit": "milligrams per deciliter",
            "system": "http://unitsofmeasure.org",
            "code": "mg/dL"
          },
          "interpretation": [
            {
              "coding": [
                {
                  "system": "http://terminology.hl7.org/CodeSystem/v3-ObservationInterpretation",
                  "code": "N",
                  "display": "Normal"
                }
              ]
            }
          ],
          "referenceRange": [
            {
              "text": "Recommended: <130; Moderate Risk: 130-159; High Risk: >160"
            }
          ]
        },
        "request": {
          "method": "POST",
          "url": "Observation"
        }
      }
    ]
  }