{
    "resourceType": "Bundle",
    "type": "transaction",
    "entry": [
      {
        "fullUrl": "urn:uuid:84e62138-9815-4943-ae84-c7b519710523",
        "resource": {
          "resourceType": "Patient",
          "identifier": [
            {
              "system": "https://cardiff.nhs.uk/Id/mrn",
              "value": "403281375"
            },
            {
              "system": "https://fhir.nhs.uk/Id/nhs-number",
              "value": "5189214567"
            }
          ],
          "name": [
            {
              "family": "Bloggs",
              "given": [
                "Joe"
              ],
              "prefix": [
                "Mr"
              ]
            }
          ],
          "birthDate": "2001-03-28",
          "address": [
            {
              "city": "Baglan",
              "district": "Neath port talbot",
              "postalCode": "SA12 7BR"
            }
          ]
        },
        "request": {
          "method": "POST",
          "url": "Patient"
        }
      },
      {
        "fullUrl": "urn:uuid:eacc3df2-f9bd-4dbe-9b60-eb23c65687bf",
        "resource": {
          "resourceType": "Encounter",
          "identifier": [
            {
              "value": "914694928301"
            }
          ],
          "status": "in-progress",
          "class": {
            "system": "http://terminology.hl7.org/CodeSystem/v3-ActCode",
            "code": "AMB",
            "display": "ambulatory"
          },
          "subject": {
            "identifier": {
              "system": "https://fhir.nhs.uk/Id/nhs-number",
              "value": "5189214567"
            }
          }
        },
        "request": {
          "method": "POST",
          "url": "Encounter"
        }
      },
      {
        "fullUrl": "urn:uuid:d8d7e245-1fe6-49dd-a162-82f4608cf5ac",
        "resource": {
          "resourceType": "ServiceRequest",
          "identifier": [
            {
              "value": "914694928301"
            }
          ],
          "status": "active",
          "intent": "order",
          "priority": "stat",
          "code": {
            "coding": [
              {
                "code": "B3051",
                "display": "HbA1c (IFCC traceable)"
              }
            ]
          },
          "orderDetail": [
            {
              "coding": [
                {
                  "code": "B3051",
                  "display": "HbA1c (IFCC traceable)"
                }
              ]
            },
            {
              "coding": [
                {
                  "code": "B0001",
                  "display": "Full blood count"
                }
              ]
            }
          ],
          "subject": {
            "reference": "urn:uuid:84e62138-9815-4943-ae84-c7b519710523"
          },
          "occurrencePeriod": {
            "start": "2018-03-09T14:00:00+00:00",
            "end": "2018-03-09T15:00:00+00:00"
          },
          "requester": {
            "display": "Dr Andar Gunneberg"
          }
        },
        "request": {
          "method": "POST",
          "url": "ServiceRequest"
        }
      },
      {
        "fullUrl": "urn:uuid:efc5e351-c62b-444c-9265-481162b5d681",
        "resource": {
          "resourceType": "DiagnosticReport",
          "identifier": [
            {
              "value": "914694928301-1"
            }
          ],
          "basedOn": [
            {
              "reference": "urn:uuid:d8d7e245-1fe6-49dd-a162-82f4608cf5ac",
              "type": "ServiceRequest",
              "identifier": {
                "value": "914694928301"
              }
            }
          ],
          "status": "final",
          "code": {
            "coding": [
              {
                "code": "B3051",
                "display": "HbA1c (IFCC traceable)"
              }
            ]
          },
          "subject": {
            "reference": "urn:uuid:84e62138-9815-4943-ae84-c7b519710523"
          },
          "encounter": {
            "reference": "urn:uuid:eacc3df2-f9bd-4dbe-9b60-eb23c65687bf"
          },
          "effectiveDateTime": "2018-03-09T15:00:00+00:00",
          "performer": [
            {
              "display": "ABM: Angharad Shore"
            }
          ],
          "result": [
            {
              "reference": "urn:uuid:29a50bb0-2124-4760-bfe4-8fc71b5bfe4d"
            }
          ],
          "conclusion": "For monitoring known diabetic patients, please follow NICE guidelines. If not a known diabetic and the patient is asymptomatic, a second confirmatory sample is required within 2 weeks (WEDS Guidance). HbA1c is unreliable for diagnostic and monitoring purposes in the context of several conditions, including some haemoglobinopathies, abnormal haemoglobin levels, chronic renal failure, recent transfusion, pregnancy, or alcoholism./r"
        },
        "request": {
          "method": "POST",
          "url": "DiagnosticReport"
        }
      },
      {
        "fullUrl": "urn:uuid:29a50bb0-2124-4760-bfe4-8fc71b5bfe4d",
        "resource": {
          "resourceType": "Observation",
          "identifier": [
            {
              "value": "914694928301-1-1"
            }
          ],
          "status": "final",
          "code": {
            "coding": [
              {
                "code": "B3553",
                "display": "HbA1c (IFCC traceable)"
              }
            ]
          },
          "subject": {
            "reference": "urn:uuid:84e62138-9815-4943-ae84-c7b519710523"
          },
          "encounter": {
            "reference": "urn:uuid:eacc3df2-f9bd-4dbe-9b60-eb23c65687bf"
          },
          "effectiveDateTime": "2018-03-09T15:00:00+00:00",
          "valueQuantity": {
            "value": 49,
            "code": "mmol/mol"
          },
          "interpretation": [
            {
              "coding": [
                {
                  "system": "http://terminology.hl7.org/CodeSystem/v3-ObservationInterpretation",
                  "code": "H",
                  "display": "High"
                }
              ]
            }
          ],
          "referenceRange": [
            {
              "text": "<48"
            }
          ]
        },
        "request": {
          "method": "POST",
          "url": "Observation"
        }
      },
      {
        "fullUrl": "urn:uuid:e45eb874-5168-4a4a-b4a6-4a2ea799770d",
        "resource": {
          "resourceType": "Specimen",
          "accessionIdentifier": {
            "value": "9146949283"
          },
          "type": {
            "coding": [
              {
                "code": "BLOO",
                "display": "Blood"
              }
            ]
          },
          "subject": {
            "reference": "urn:uuid:84e62138-9815-4943-ae84-c7b519710523"
          },
          "collection": {
            "collectedDateTime": "2018-03-09T14:00:00+00:00"
          }
        },
        "request": {
          "method": "POST",
          "url": "Specimen"
        }
      },
      {
        "fullUrl": "urn:uuid:6bce8c48-65b6-4840-9fe2-20d99dd2d655",
        "resource": {
          "resourceType": "DiagnosticReport",
          "identifier": [
            {
              "value": "914694928301-2"
            }
          ],
          "basedOn": [
            {
              "reference": "urn:uuid:d8d7e245-1fe6-49dd-a162-82f4608cf5ac",
              "type": "ServiceRequest",
              "identifier": {
                "value": "914694928301"
              }
            }
          ],
          "status": "final",
          "code": {
            "coding": [
              {
                "code": "B0001",
                "display": "Full blood count"
              }
            ]
          },
          "subject": {
            "reference": "urn:uuid:84e62138-9815-4943-ae84-c7b519710523"
          },
          "encounter": {
            "reference": "urn:uuid:eacc3df2-f9bd-4dbe-9b60-eb23c65687bf"
          },
          "effectiveDateTime": "2018-03-09T15:00:00+00:00",
          "performer": [
            {
              "display": "ABM: Carl Owen"
            }
          ],
          "specimen": [
            {
              "reference": "urn:uuid:e45eb874-5168-4a4a-b4a6-4a2ea799770d"
            }
          ],
          "result": [
            {
              "reference": "urn:uuid:8df19fcf-9a6b-4bd7-92e7-875edc80a1ed"
            },
            {
              "reference": "urn:uuid:977ed7b2-c791-412f-8d1f-d53df1533334"
            },
            {
              "reference": "urn:uuid:33f0dd6b-8d4c-4e64-90e8-fc33daa03825"
            },
            {
              "reference": "urn:uuid:926fae33-ec76-440c-9b75-3decad306df8"
            },
            {
              "reference": "urn:uuid:bad16c40-5ebe-4b32-8d0e-68598dc44899"
            },
            {
              "reference": "urn:uuid:84be6ce7-9690-4698-bc37-66f2e86f198f"
            },
            {
              "reference": "urn:uuid:88810b84-1669-4f69-a84c-4a5fcea88210"
            }
          ]
        },
        "request": {
          "method": "POST",
          "url": "DiagnosticReport"
        }
      },
      {
        "fullUrl": "urn:uuid:8df19fcf-9a6b-4bd7-92e7-875edc80a1ed",
        "resource": {
          "resourceType": "Observation",
          "identifier": [
            {
              "value": "914694928301-2-1"
            }
          ],
          "status": "final",
          "code": {
            "coding": [
              {
                "code": "B0300",
                "display": "White blood cell (WBC) count"
              }
            ]
          },
          "subject": {
            "reference": "urn:uuid:84e62138-9815-4943-ae84-c7b519710523"
          },
          "encounter": {
            "reference": "urn:uuid:eacc3df2-f9bd-4dbe-9b60-eb23c65687bf"
          },
          "effectiveDateTime": "2018-03-09T15:00:00+00:00",
          "valueQuantity": {
            "value": 3.5,
            "code": "x10^9/L"
          },
          "interpretation": [
            {
              "coding": [
                {
                  "system": "http://terminology.hl7.org/CodeSystem/v3-ObservationInterpretation",
                  "code": "L",
                  "display": "Low"
                }
              ]
            }
          ],
          "referenceRange": [
            {
              "text": "4.0-11.0"
            }
          ]
        },
        "request": {
          "method": "POST",
          "url": "Observation"
        }
      },
      {
        "fullUrl": "urn:uuid:977ed7b2-c791-412f-8d1f-d53df1533334",
        "resource": {
          "resourceType": "Observation",
          "identifier": [
            {
              "value": "914694928301-2-2"
            }
          ],
          "status": "final",
          "code": {
            "coding": [
              {
                "code": "B0307",
                "display": "Haemoglobin (Hb)"
              }
            ]
          },
          "subject": {
            "reference": "urn:uuid:84e62138-9815-4943-ae84-c7b519710523"
          },
          "encounter": {
            "reference": "urn:uuid:eacc3df2-f9bd-4dbe-9b60-eb23c65687bf"
          },
          "effectiveDateTime": "2018-03-09T15:00:00+00:00",
          "valueQuantity": {
            "value": 200,
            "code": "g/L"
          },
          "interpretation": [
            {
              "coding": [
                {
                  "system": "http://terminology.hl7.org/CodeSystem/v3-ObservationInterpretation",
                  "code": "H",
                  "display": "High"
                }
              ]
            }
          ],
          "referenceRange": [
            {
              "text": "130-180"
            }
          ]
        },
        "request": {
          "method": "POST",
          "url": "Observation"
        }
      },
      {
        "fullUrl": "urn:uuid:33f0dd6b-8d4c-4e64-90e8-fc33daa03825",
        "resource": {
          "resourceType": "Observation",
          "identifier": [
            {
              "value": "914694928301-2-3"
            }
          ],
          "status": "final",
          "code": {
            "coding": [
              {
                "code": "B0314",
                "display": "Platelet (PLT) count"
              }
            ]
          },
          "subject": {
            "reference": "urn:uuid:84e62138-9815-4943-ae84-c7b519710523"
          },
          "encounter": {
            "reference": "urn:uuid:eacc3df2-f9bd-4dbe-9b60-eb23c65687bf"
          },
          "effectiveDateTime": "2018-03-09T15:00:00+00:00",
          "valueQuantity": {
            "value": 500,
            "code": "x10^9/L"
          },
          "interpretation": [
            {
              "coding": [
                {
                  "system": "http://terminology.hl7.org/CodeSystem/v3-ObservationInterpretation",
                  "code": "H",
                  "display": "High"
                }
              ]
            }
          ],
          "referenceRange": [
            {
              "text": "150-400"
            }
          ]
        },
        "request": {
          "method": "POST",
          "url": "Observation"
        }
      },
      {
        "fullUrl": "urn:uuid:926fae33-ec76-440c-9b75-3decad306df8",
        "resource": {
          "resourceType": "Observation",
          "identifier": [
            {
              "value": "914694928301-2-4"
            }
          ],
          "status": "final",
          "code": {
            "coding": [
              {
                "code": "B0306",
                "display": "Red blood cell (RBC) count"
              }
            ]
          },
          "subject": {
            "reference": "urn:uuid:84e62138-9815-4943-ae84-c7b519710523"
          },
          "encounter": {
            "reference": "urn:uuid:eacc3df2-f9bd-4dbe-9b60-eb23c65687bf"
          },
          "effectiveDateTime": "2018-03-09T15:00:00+00:00",
          "valueQuantity": {
            "value": 6,
            "code": "x10^12/L"
          },
          "interpretation": [
            {
              "coding": [
                {
                  "system": "http://terminology.hl7.org/CodeSystem/v3-ObservationInterpretation",
                  "code": "N",
                  "display": "Normal"
                }
              ]
            }
          ],
          "referenceRange": [
            {
              "text": "4.50-6.00"
            }
          ]
        },
        "request": {
          "method": "POST",
          "url": "Observation"
        }
      },
      {
        "fullUrl": "urn:uuid:bad16c40-5ebe-4b32-8d0e-68598dc44899",
        "resource": {
          "resourceType": "Observation",
          "identifier": [
            {
              "value": "914694928301-2-5"
            }
          ],
          "status": "final",
          "code": {
            "coding": [
              {
                "code": "B0308",
                "display": "Haematocrit (Hct)"
              }
            ]
          },
          "subject": {
            "reference": "urn:uuid:84e62138-9815-4943-ae84-c7b519710523"
          },
          "encounter": {
            "reference": "urn:uuid:eacc3df2-f9bd-4dbe-9b60-eb23c65687bf"
          },
          "effectiveDateTime": "2018-03-09T15:00:00+00:00",
          "valueQuantity": {
            "value": 0.6,
            "code": "L/L"
          },
          "interpretation": [
            {
              "coding": [
                {
                  "system": "http://terminology.hl7.org/CodeSystem/v3-ObservationInterpretation",
                  "code": "H",
                  "display": "High"
                }
              ]
            }
          ],
          "referenceRange": [
            {
              "text": "0.40-0.52"
            }
          ]
        },
        "request": {
          "method": "POST",
          "url": "Observation"
        }
      },
      {
        "fullUrl": "urn:uuid:84be6ce7-9690-4698-bc37-66f2e86f198f",
        "resource": {
          "resourceType": "Observation",
          "identifier": [
            {
              "value": "914694928301-2-6"
            }
          ],
          "status": "final",
          "code": {
            "coding": [
              {
                "code": "B0309",
                "display": "Mean cell volume (MCV)"
              }
            ]
          },
          "subject": {
            "reference": "urn:uuid:84e62138-9815-4943-ae84-c7b519710523"
          },
          "encounter": {
            "reference": "urn:uuid:eacc3df2-f9bd-4dbe-9b60-eb23c65687bf"
          },
          "effectiveDateTime": "2018-03-09T15:00:00+00:00",
          "valueQuantity": {
            "value": 120,
            "code": "fL"
          },
          "interpretation": [
            {
              "coding": [
                {
                  "system": "http://terminology.hl7.org/CodeSystem/v3-ObservationInterpretation",
                  "code": "H",
                  "display": "High"
                }
              ]
            }
          ],
          "referenceRange": [
            {
              "text": "80-100"
            }
          ]
        },
        "request": {
          "method": "POST",
          "url": "Observation"
        }
      },
      {
        "fullUrl": "urn:uuid:88810b84-1669-4f69-a84c-4a5fcea88210",
        "resource": {
          "resourceType": "Observation",
          "identifier": [
            {
              "value": "914694928301-2-7"
            }
          ],
          "status": "final",
          "code": {
            "coding": [
              {
                "code": "B0310",
                "display": "Mean cell haemoglobin (MCH)"
              }
            ]
          },
          "subject": {
            "reference": "urn:uuid:84e62138-9815-4943-ae84-c7b519710523"
          },
          "encounter": {
            "reference": "urn:uuid:eacc3df2-f9bd-4dbe-9b60-eb23c65687bf"
          },
          "effectiveDateTime": "2018-03-09T15:00:00+00:00",
          "valueQuantity": {
            "value": 34,
            "code": "pg"
          },
          "interpretation": [
            {
              "coding": [
                {
                  "system": "http://terminology.hl7.org/CodeSystem/v3-ObservationInterpretation",
                  "code": "H",
                  "display": "High"
                }
              ]
            }
          ],
          "referenceRange": [
            {
              "text": "27.0-33.0"
            }
          ]
        },
        "request": {
          "method": "POST",
          "url": "Observation"
        }
      }
    ]
  }